AccX,AccY,AccZ,GyrX,GyrY,GyrZ,MagX,MagY,MagZ,Temp_C
4.88,-442.38,941.89,-0.95,0.86,1.6,37.95,-51.0,51.75,25.78
11.23,-436.52,942.38,1.56,-2.45,0.51,39.0,-51.3,51.15,25.73
8.79,-444.34,937.01,0.63,0.24,-0.89,39.9,-51.45,52.35,25.87
-8.3,-431.64,925.78,1.62,-0.92,3.66,38.25,-50.55,51.45,25.73
2.93,-436.52,934.08,2.74,-0.5,-0.09,37.8,-51.45,51.6,25.87
3.91,-442.87,962.4,-0.48,-1.31,-0.55,38.55,-50.85,51.3,25.87
8.79,-438.96,936.04,-0.08,-1.17,0.95,38.85,-50.1,51.9,25.78
2.44,-455.08,941.41,0.81,-0.06,-2.09,38.55,-51.45,51.3,25.78
2.44,-438.48,939.94,-1.49,-0.76,1.7,37.95,-52.05,50.1,25.87
-0.98,-435.06,926.76,-1.41,-0.44,0.97,39.15,-51.15,52.35,25.73
3.42,-455.08,945.31,0.62,-1.7,-0.56,38.25,-49.5,50.1,25.87
-4.88,-443.36,936.52,0.04,1.3,0.61,38.25,-50.25,52.5,25.87
6.35,-464.36,938.96,1.63,-1.25,1.46,37.5,-51.15,51.9,25.92
9.77,-441.89,937.01,1.13,2.4,-0.34,38.25,-51.0,53.1,25.78
4.88,-439.94,946.29,-0.11,1.27,-2.02,37.8,-52.2,50.25,25.59
7.81,-440.92,939.94,0.8,-0.19,-0.27,39.15,-50.1,51.3,25.97
-2.93,-452.64,942.38,-0.27,1.0,0.07,38.1,-50.4,52.65,25.97
5.37,-437.5,944.82,1.18,-0.82,-1.89,37.95,-51.75,52.2,25.92
-7.32,-451.66,934.57,0.79,-1.31,1.56,38.25,-50.25,51.15,25.68
-3.42,-450.68,949.22,-2.25,0.52,2.08,38.7,-51.0,50.4,25.78
5.37,-441.41,949.71,-0.17,0.68,-0.2,38.55,-51.45,51.3,25.73
-6.35,-442.87,941.41,-1.15,1.48,2.15,37.65,-50.55,51.15,25.44
6.84,-440.43,935.55,0.32,-0.3,-1.95,39.45,-50.55,51.15,25.92
4.88,-439.45,945.8,0.59,-0.01,-0.27,39.0,-50.55,51.45,25.73
2.93,-443.36,941.41,-1.79,-0.66,-2.21,38.55,-51.15,52.35,25.59
-2.93,-450.2,942.38,2.05,-0.56,0.81,37.8,-50.4,49.95,25.78
0.0,-443.85,946.29,0.24,0.05,0.5,39.15,-49.65,51.9,25.78
-14.65,-444.34,942.87,0.1,2.57,2.2,38.85,-51.9,52.65,25.68
-9.28,-435.06,927.73,0.75,-0.74,-1.08,38.85,-50.4,50.85,25.87
1.46,-442.38,952.15,-4.17,0.85,-0.46,38.7,-50.55,50.7,25.59
-2.44,-451.17,939.45,1.22,-0.07,-1.67,38.55,-50.4,51.3,25.78
10.25,-435.06,944.34,1.82,-0.92,-1.04,38.7,-50.25,51.45,25.78
3.42,-441.41,945.8,-2.44,-0.69,-0.89,38.7,-49.95,52.2,25.92
0.49,-446.29,939.45,1.15,-1.53,0.72,37.8,-50.1,50.55,26.06
-7.81,-444.82,949.22,-1.21,0.97,2.12,38.25,-51.3,51.45,25.87
5.37,-442.38,940.43,-4.17,1.09,2.04,37.95,-51.75,51.75,25.92
5.37,-445.8,934.57,0.72,1.08,0.36,37.2,-50.55,51.15,25.78
12.21,-452.15,938.48,-2.69,-0.11,2.13,38.25,-49.95,51.45,25.87
-155.27,-1371.58,1742.68,212.5,-81.21,50.31,37.05,-51.45,53.4,25.73
132.81,47.85,1067.38,214.12,-56.93,50.55,38.1,-44.55,54.0,25.73
-28.32,-169.43,1006.35,195.61,6.73,9.33,39.9,-38.85,57.15,25.78
5.86,-119.63,1076.66,96.14,16.67,0.94,40.65,-31.5,60.3,25.78
-2.93,194.34,1002.93,188.98,24.21,21.72,42.75,-26.1,59.55,25.78
77.15,180.18,1028.32,4.01,3.21,24.52,39.9,-24.6,61.35,25.68
60.06,41.02,1031.25,4.58,-2.17,11.76,40.8,-23.4,62.55,25.87
-87.4,9.28,1038.09,0.24,1.03,16.05,40.05,-22.65,61.8,25.87
-34.67,43.95,1048.34,-0.16,-0.59,1.71,40.05,-22.95,61.5,25.87
22.46,-38.57,1028.32,-0.38,0.99,16.31,40.65,-23.55,63.0,25.78
-18.55,-9.28,1025.88,-0.66,-4.56,17.33,39.9,-22.05,62.4,25.54
4.39,-3.42,1033.69,2.94,-1.79,-2.22,40.05,-20.4,62.25,25.78
23.93,-12.7,1043.95,1.08,6.24,14.4,42.15,-23.4,60.75,25.59
0.49,2.44,1061.52,-0.89,1.29,-0.8,40.05,-21.15,63.6,26.11
4.88,-16.11,1022.46,9.76,4.18,9.92,40.95,-23.55,61.35,25.87
-3.42,-1.95,1042.48,-0.89,-0.21,2.39,41.7,-22.5,61.95,25.78
9.28,-5.86,1037.11,2.29,0.39,7.45,40.05,-21.9,62.25,25.87
43.95,-25.39,1054.69,-0.95,-1.87,5.33,40.05,-19.65,65.25,25.87
33.69,1.95,1025.39,1.73,0.37,2.79,42.0,-20.7,66.15,25.87
-428.71,-343.75,1407.23,21.02,-8.16,33.24,41.55,-19.35,62.55,25.78
-20.51,33.69,1017.09,5.31,-1.02,-2.99,40.5,-20.1,62.85,25.78
21.48,-5.37,1059.57,0.53,1.92,6.14,40.2,-19.2,61.95,25.87
-7.81,-16.11,1021.48,5.66,-0.25,7.31,39.9,-19.95,61.95,25.78
-24.9,-5.86,1068.85,1.6,-1.77,7.24,41.55,-20.4,61.5,25.97
8.3,19.04,989.75,-0.47,7.61,8.26,40.95,-19.5,61.35,25.78
-12.21,5.86,1050.29,-10.32,1.33,-9.86,42.6,-18.3,63.6,25.73
-5.86,8.79,1050.29,-4.9,0.92,1.02,41.4,-18.45,60.6,25.39
-4.88,-7.81,1031.25,-2.41,0.59,5.8,41.55,-21.15,59.4,25.68
21.97,20.51,1036.13,-0.8,0.56,2.23,40.65,-21.0,59.55,25.73
0.0,-44.92,1045.41,0.87,0.95,5.72,39.75,-20.1,59.4,25.44
-31.25,-0.49,1024.41,-0.5,2.73,10.73,40.95,-19.2,58.95,25.87
-2.93,21.48,1037.6,-0.21,-1.87,3.79,40.65,-20.25,60.0,25.92
11.72,15.14,1043.46,-0.92,-0.2,-2.28,41.1,-19.65,59.1,25.87
3.91,1.46,1037.6,0.44,0.53,-6.02,40.5,-19.65,59.7,25.92
12.21,-10.74,1036.62,0.32,-0.45,-3.38,40.95,-20.7,60.0,25.73
5.86,-0.49,1039.55,0.15,-1.8,-1.76,40.65,-21.3,60.0,25.87
3.42,2.93,1040.04,-0.59,-0.21,2.27,42.0,-20.7,60.0,25.87
-23.44,-11.23,1033.2,-1.67,-0.5,14.27,41.7,-19.95,59.55,25.59
4.88,-12.21,1031.74,1.17,0.03,101.61,41.1,-20.85,60.15,25.92
-0.98,7.32,1038.57,-4.44,1.93,149.19,41.1,-17.25,60.15,25.73
25.88,-16.11,1055.66,-5.31,-0.55,160.75,40.65,-14.4,58.5,25.78
-37.6,-26.37,1021.0,0.16,2.08,161.6,41.1,-10.35,57.75,25.73
-11.23,40.53,1062.5,5.7,-5.5,135.43,41.55,-7.05,60.15,25.87
-29.3,88.87,1051.27,4.04,2.46,106.63,41.1,-4.05,59.7,25.78
1.95,-33.69,1042.97,3.06,3.69,106.08,39.45,-1.95,59.1,25.73
-4.88,-50.78,1043.95,2.11,0.44,75.21,40.65,0.3,59.55,25.78
-38.57,-7.81,1047.36,1.49,0.5,67.73,39.15,2.4,61.05,25.44
-12.21,-37.11,1041.99,1.39,0.51,55.25,38.55,3.9,60.3,25.68
27.34,11.72,1052.73,-0.72,0.58,18.81,38.7,4.05,60.75,25.73
13.18,-2.93,1043.95,1.08,-1.55,-3.82,38.1,4.95,60.0,25.54
77.15,-24.9,1034.18,-3.16,1.21,-104.62,39.15,3.9,60.0,25.68
21.97,-20.51,1049.8,0.22,2.87,-138.92,39.75,1.95,59.7,25.92
-31.25,-24.9,1030.27,3.49,-3.04,-121.31,41.7,0.6,60.6,25.78
-6.35,-19.04,1046.39,-0.72,2.15,-119.2,41.55,-3.45,61.5,25.73
-0.98,-107.91,1035.64,5.98,1.93,-161.03,42.0,-6.45,61.35,25.92
30.76,-23.93,1036.62,0.79,-3.13,-169.93,42.9,-10.35,60.15,25.92
-8.79,22.46,1027.34,-10.76,-0.34,-176.45,42.9,-14.25,59.7,25.73
3.42,15.63,1051.27,-1.31,-3.98,-145.93,40.05,-20.1,59.4,25.87
-5.37,-78.12,1052.73,-2.03,-0.32,-138.02,41.4,-21.3,61.95,25.78
26.37,14.16,1040.53,-7.19,-1.55,-99.66,41.1,-26.7,59.7,25.78
0.98,-46.39,1041.99,-1.37,0.31,-116.0,37.95,-27.0,58.65,25.87
-77.15,-67.87,1023.44,3.79,-5.21,-137.82,36.45,-31.2,59.55,25.78
83.98,-27.34,1057.13,-6.27,1.69,-154.91,34.95,-31.95,58.2,25.78
46.88,0.49,1035.64,-5.98,-4.02,-206.72,32.55,-35.1,60.0,25.59
22.46,-8.79,1038.09,4.69,-3.21,-204.48,30.6,-38.55,60.75,25.87
37.6,23.44,1034.18,0.82,2.4,-110.88,27.9,-41.4,60.0,25.59
26.86,-18.55,1045.41,3.56,-2.89,-103.73,25.35,-43.2,60.0,25.73
11.23,-46.39,1042.97,-3.77,-0.3,-82.17,23.4,-42.9,61.5,25.68
32.71,-3.91,1046.88,-1.29,0.34,-55.23,21.0,-45.15,62.25,25.87
15.63,6.35,1030.76,-0.27,1.74,-38.07,19.95,-46.65,61.5,25.68
43.46,10.74,1038.57,0.54,0.0,-20.47,18.3,-46.05,62.7,25.73
-23.44,-9.77,1043.46,-0.71,-0.66,-7.21,19.95,-46.95,60.75,25.78
0.49,1.95,1040.53,-0.23,1.73,0.06,18.75,-45.3,61.05,25.87
-20.02,6.84,1042.97,-1.66,-0.96,1.68,18.0,-45.0,61.95,25.78
-9.77,-11.72,1037.6,0.12,1.14,0.96,20.25,-45.15,61.2,25.87
5.86,5.37,1058.11,-1.19,1.02,0.79,18.75,-46.05,62.4,25.68
-11.23,4.88,1035.64,-0.8,1.61,2.07,18.75,-47.1,62.4,25.87
11.72,9.77,1047.36,0.07,1.73,1.99,19.5,-44.85,62.55,25.73
-1.95,0.49,1043.95,0.95,-0.3,2.1,18.15,-44.85,62.85,25.35
6.84,-9.77,1043.95,0.53,0.84,-3.36,19.35,-44.25,62.7,25.44
9.77,-3.42,1041.99,1.5,-2.15,-2.05,20.25,-46.2,62.85,25.25
-2.44,-7.81,1050.78,-1.19,1.9,0.81,18.0,-44.25,61.95,25.59
3.42,-8.3,1050.78,-2.19,-1.02,0.69,19.35,-45.75,61.35,25.54
-3.91,3.42,1033.2,0.4,1.15,-0.66,19.8,-45.75,61.35,25.73
2.93,-4.88,1041.5,0.02,-3.39,0.31,19.35,-46.05,63.45,25.44
-5.37,-15.63,1041.02,-1.06,1.48,30.01,19.05,-47.55,61.35,25.68
0.98,-25.39,1042.97,0.46,-1.85,58.97,20.1,-45.3,64.5,25.25
10.74,2.44,1047.85,7.22,-1.17,84.68,21.3,-45.45,62.55,25.59
25.88,-23.93,1033.2,3.7,-0.48,101.68,23.7,-42.75,62.4,25.54
11.72,-23.44,1042.97,-5.98,1.27,126.16,25.35,-42.75,60.6,25.44
-6.84,-50.29,1001.95,3.5,6.3,198.0,26.85,-42.45,61.35,25.78
-153.81,21.0,1057.13,10.18,1.68,225.13,31.05,-38.1,61.05,25.54
16.11,51.27,1033.69,3.47,5.91,250.13,32.85,-31.95,60.0,25.54
21.48,2.93,1047.85,-3.36,-1.0,154.32,36.75,-29.7,63.0,25.54
10.25,38.57,1039.55,10.5,-2.12,194.55,38.25,-26.7,60.45,25.73
-42.97,-33.69,1048.83,1.98,-0.57,174.56,38.55,-23.25,60.6,25.59
41.02,27.83,1051.27,3.11,-0.8,138.75,40.5,-19.35,61.2,25.35
4.88,3.42,1042.48,-1.28,-1.22,135.91,41.4,-15.9,60.3,25.68
-46.88,78.61,1032.71,-0.45,2.18,153.38,43.5,-13.05,61.35,25.54
-63.48,123.54,1053.22,1.02,0.05,116.67,41.7,-11.25,61.05,25.59
3.42,43.46,1050.29,3.85,0.76,98.71,41.4,-7.5,61.35,25.54
18.55,101.07,1036.62,0.59,0.79,97.45,40.95,-5.7,61.35,25.68
-55.66,-0.49,1039.55,-1.47,1.58,80.09,40.95,-1.8,60.3,25.68
-26.37,-3.91,1026.37,1.0,-1.98,66.86,40.2,-1.05,61.65,25.44
-17.58,-83.98,1039.06,0.8,1.39,49.76,41.55,0.45,60.75,25.68
4.88,13.18,1039.55,-0.96,-0.62,27.25,39.75,2.7,61.5,25.25
13.18,-16.11,1034.18,-0.33,-0.34,10.34,39.9,0.0,59.55,25.39
-0.49,2.93,1047.85,-1.02,-0.19,-1.91,40.65,0.6,60.0,25.35
10.74,34.67,1043.46,-1.11,-3.2,-73.08,39.75,1.5,61.2,25.54
-0.98,-43.95,1023.93,-0.79,-5.18,-103.84,40.65,0.0,62.7,25.59
-21.97,225.1,1045.41,-1.04,-2.69,-197.54,41.7,-3.15,61.65,25.54
-4.39,-50.29,1040.04,-6.13,1.6,-199.79,40.8,-10.65,60.75,25.54
5.37,-39.55,1044.92,2.02,-1.2,-136.89,41.55,-15.75,57.75,25.73
62.5,55.66,1011.23,2.4,0.48,-106.18,39.75,-16.5,57.75,25.68
172.85,-1.46,1027.34,-3.66,1.96,-139.84,40.8,-17.85,56.7,25.68
36.13,16.6,1048.83,1.95,-5.09,-185.48,38.7,-20.1,54.15,25.44
47.85,-54.69,1027.83,-7.31,3.18,-218.54,37.8,-24.3,54.45,25.54
62.5,-27.34,1044.43,1.25,-3.03,-198.28,38.55,-27.6,55.5,25.39
-118.65,-19.04,1041.99,-2.46,-0.06,-166.83,37.05,-31.95,54.75,25.54
6.84,-104.0,1045.9,3.22,-1.73,-141.55,33.6,-34.8,55.05,25.35
8.79,12.21,1033.69,1.93,-1.71,-123.85,31.05,-38.4,55.05,25.54
-44.43,-17.58,1045.41,6.38,0.29,-136.11,29.1,-39.75,55.2,25.39
-12.21,9.77,1053.22,-1.73,-1.64,-118.38,27.6,-40.95,55.8,25.54
-42.48,9.28,1050.29,-8.47,0.35,-129.52,25.65,-42.3,56.25,25.68
21.97,25.39,1039.55,-2.49,-0.25,-87.71,24.45,-43.65,55.95,25.44
-15.63,-67.87,1044.43,-2.3,1.52,-88.93,21.45,-45.0,56.4,25.39
54.2,184.08,1050.78,-6.17,1.02,-81.22,18.9,-46.65,55.2,25.35
4.39,25.88,1041.99,0.53,-0.82,-42.76,17.1,-47.7,56.7,25.25
-14.16,-19.04,1037.11,0.54,0.31,-16.18,17.25,-48.9,57.9,25.2
-6.35,-16.6,1049.32,1.69,1.08,2.15,15.3,-47.7,57.0,25.15
132.81,-103.52,1047.85,2.6,-2.07,78.04,15.9,-50.1,57.15,25.44
127.44,23.93,1045.41,5.66,-2.15,136.2,18.15,-47.7,57.0,25.35
-139.16,88.87,1071.29,1.24,-2.6,213.07,20.1,-48.3,56.1,25.54
22.46,3.91,1031.25,6.89,2.22,158.64,24.15,-45.45,53.55,25.68
9.77,23.44,1044.43,11.88,2.89,123.98,28.35,-42.9,54.9,25.2
28.32,1.95,1043.46,-0.72,-0.26,134.85,29.1,-39.0,53.1,25.44
-24.41,-54.69,1040.04,3.89,-2.69,159.05,32.25,-39.3,51.75,25.35
2.93,9.77,1056.15,10.32,1.48,223.72,35.55,-36.0,53.1,25.39
-67.87,53.22,1046.39,18.3,-2.38,250.13,38.25,-29.85,52.5,25.25
-52.73,20.02,1037.6,10.23,1.75,245.0,40.05,-23.7,51.75,25.44
-27.83,-30.76,1049.32,3.79,7.47,220.43,41.1,-17.85,53.85,25.15
11.72,8.79,1045.41,-3.65,-3.4,189.72,41.55,-15.0,51.45,25.25
6.35,-18.07,1044.43,0.55,-0.92,113.01,42.0,-8.25,54.0,25.2
-15.63,50.78,1045.9,1.26,0.92,131.02,42.6,-7.05,54.6,25.59
-259.77,263.18,1052.25,4.69,-3.97,123.01,40.8,-3.45,53.55,25.44
-22.46,85.94,1044.92,0.19,2.27,155.49,40.5,-1.5,54.6,25.39
-3.42,-65.43,1040.04,3.97,0.31,82.18,39.45,-0.9,54.6,25.25
-50.29,62.99,1025.88,1.39,-2.47,98.02,38.85,1.35,53.4,25.39
-4.88,50.29,1041.99,1.95,0.02,72.24,39.0,3.75,54.9,25.2
6.84,-13.18,1053.22,1.99,0.33,8.25,38.1,4.95,53.7,24.91
0.0,11.23,1042.48,0.59,2.26,12.84,37.65,5.25,54.9,25.15
4.39,-4.88,1049.8,-0.35,-1.26,7.21,37.8,5.4,53.4,25.15
2.93,-4.39,1039.06,2.64,-1.02,3.02,37.8,5.7,54.0,25.35
6.35,-4.39,1035.64,-0.24,0.31,1.13,37.2,5.25,54.6,25.25
3.42,-2.93,1049.32,0.37,2.55,-5.93,37.65,7.05,55.65,25.39
31.25,-243.65,1028.81,-9.74,2.38,-149.41,37.95,4.5,55.95,25.15
19.53,-42.97,1035.64,-7.22,-0.4,-249.3,39.75,2.25,55.95,25.2
-88.87,-604.98,1025.88,-3.09,-15.45,-148.92,39.9,-1.8,55.8,25.25
-12.21,-47.36,1006.84,-3.82,1.15,-183.41,40.5,-3.45,55.65,25.44
8.3,13.67,1046.39,-12.82,-9.27,-167.08,43.35,-6.6,55.95,25.35
1.95,37.11,1037.6,-3.7,6.27,-167.88,42.0,-10.8,57.15,25.44
31.25,-97.66,1037.6,7.98,-0.06,-180.39,42.0,-12.6,56.1,25.39
-39.06,8.3,1030.27,-0.21,-2.89,-221.83,40.65,-18.75,60.3,25.25
-143.07,-7.32,1031.74,3.05,-3.93,-216.84,39.45,-24.15,58.35,25.44
22.46,53.71,1043.95,-4.01,-2.08,-169.16,38.25,-26.7,58.35,25.2
-52.73,-5.86,1045.9,6.71,-0.67,-172.48,35.7,-31.95,59.25,25.25
-15.63,-4.88,1046.39,5.74,-4.45,-95.95,33.75,-34.65,59.1,25.06
-13.18,135.25,1035.64,-0.53,1.77,-151.7,31.2,-37.2,60.15,25.2
46.39,-21.97,1041.99,-12.29,1.11,-115.7,29.55,-39.3,59.7,25.15
-53.22,498.05,1037.6,3.86,1.74,-120.47,27.6,-40.2,60.6,25.15
-390.62,530.76,1044.43,1.6,-0.35,-91.59,24.0,-41.7,61.95,25.15
-22.95,41.02,1033.69,-5.83,-0.28,-136.03,21.75,-45.9,61.2,25.44
-10.74,-3.42,1024.9,-1.48,1.9,-66.6,19.05,-45.0,61.35,25.25
-11.72,-8.3,1032.71,-4.05,0.98,-33.26,19.35,-47.55,61.65,25.2
-4.39,-30.76,1038.57,-1.76,-0.87,-20.84,18.0,-47.55,61.65,25.2
-16.6,-12.21,1029.79,1.0,1.26,-3.11,17.25,-46.8,63.0,25.35
-4.88,-10.25,1033.69,-0.17,-1.06,-0.52,16.5,-46.5,62.4,25.35
34.18,-57.13,1057.62,-5.76,5.23,39.47,17.55,-46.8,61.95,25.39
-38.09,109.37,1040.04,0.57,-2.89,40.51,19.8,-46.8,62.4,25.39
-18.55,-20.51,1040.53,-2.21,-3.5,141.8,19.2,-44.85,59.7,25.35
-23.44,-280.27,1047.36,6.08,-0.16,147.97,22.05,-41.55,58.05,25.39
40.04,53.71,1030.27,3.78,2.28,151.42,24.45,-42.3,57.75,25.25
10.25,40.53,1036.13,1.18,3.08,126.01,28.35,-39.0,56.7,25.35
-7.81,-33.2,1037.11,4.27,0.91,148.98,29.25,-35.85,56.4,25.2
62.5,-209.47,1029.3,7.13,5.08,211.63,31.8,-34.8,57.15,25.2
-2.44,23.44,1017.58,-10.86,-6.77,250.13,34.65,-31.5,55.5,25.39
68.36,10.25,1033.69,8.09,-0.08,198.92,35.85,-24.75,56.25,25.2
-14.65,92.29,1035.64,11.6,-0.1,226.75,37.2,-22.95,58.65,25.01
30.76,-30.76,1040.53,7.54,-0.25,241.3,38.25,-15.75,59.7,25.25
-10.74,40.53,1026.86,7.37,-0.3,154.32,38.85,-12.3,58.5,25.25
7.32,-5.86,1045.41,5.04,1.0,156.85,39.15,-9.75,59.55,25.25
-89.84,117.68,1010.25,0.79,4.21,172.23,39.15,-3.9,58.5,25.39
47.36,-78.61,1042.48,14.76,1.5,149.06,37.05,-2.1,58.2,25.35
-21.48,38.57,1155.27,-2.26,2.01,145.27,36.9,2.25,55.95,25.15
9.28,48.34,1040.04,5.66,-2.06,134.24,36.15,2.7,55.95,25.39
40.04,134.77,1044.92,2.76,-1.63,102.05,34.65,6.15,55.5,25.35
117.68,41.5,1031.25,2.73,1.64,116.99,34.95,5.7,56.4,25.15
4.88,-21.0,1038.09,1.65,3.58,71.02,35.1,7.05,55.65,25.2
-3.91,34.18,1038.57,1.72,-1.03,51.27,33.0,7.05,53.55,25.06
-353.52,1151.37,1047.36,6.66,30.38,32.63,31.35,7.5,54.45,25.15
-118.65,176.27,1044.43,-1.04,9.93,25.08,31.2,8.4,53.1,25.39
-1.46,-4.88,1036.62,-0.03,-1.05,0.57,30.9,7.05,54.9,25.25
20.51,0.49,1045.9,1.37,-0.05,-0.31,32.25,9.15,56.25,25.15
5.37,-6.35,1030.76,-1.01,-1.44,-1.38,31.05,9.3,55.05,25.44
32.23,91.31,1041.02,-0.67,3.14,-22.83,31.95,11.4,56.7,25.15
23.93,45.41,1034.18,-4.72,-1.9,-96.18,32.85,8.25,55.8,24.91
32.71,50.78,1046.39,1.19,-6.44,-136.76,33.0,8.1,56.25,25.06
-134.77,77.64,1041.5,-2.85,-1.18,-177.25,34.05,7.35,58.35,25.15
60.06,260.74,1036.13,5.87,-2.81,-156.55,36.15,4.5,60.75,25.35
58.59,-62.01,1044.92,-2.14,1.93,-102.27,37.65,1.95,58.05,25.25
9.28,-4.88,1041.02,3.54,-5.9,-79.02,37.65,-0.45,59.7,25.15
-2.44,-22.46,1034.67,-6.11,-3.28,-133.18,37.95,-0.15,60.45,25.25
-20.51,11.23,1045.9,-1.49,-0.82,-108.14,39.15,-4.35,60.6,25.35
-426.27,715.82,1218.26,-17.79,-2.85,-140.09,39.0,-7.8,61.5,25.25
-210.94,73.73,1033.69,8.68,7.73,-144.28,37.8,-11.25,61.95,25.2
15.63,60.55,1059.08,1.01,0.7,-97.9,39.6,-16.65,60.3,25.01
-11.23,2.93,1041.99,4.08,1.19,-87.17,38.85,-16.95,60.6,24.82
-14.65,33.69,1035.16,-4.58,-2.18,-100.44,37.65,-20.4,59.7,24.91
-37.11,-28.32,1035.64,-0.92,-1.7,-98.01,38.7,-21.9,59.1,24.87
-11.72,-9.77,1025.88,-3.61,-0.57,-135.27,38.85,-25.35,61.05,25.35
92.29,312.01,1035.16,-17.19,-1.22,-250.14,36.0,-28.65,61.05,25.2
-86.91,-231.45,1046.88,-4.44,-4.66,-250.14,33.75,-32.85,60.45,25.2
28.32,3.42,1040.53,1.33,-3.74,-200.6,30.9,-37.95,61.8,25.15
671.87,-735.35,1039.55,-4.89,-8.26,-250.14,28.8,-40.05,61.8,25.39
103.52,-10.25,1043.46,8.2,-3.73,-74.17,24.75,-41.7,62.7,25.39
-21.0,73.24,1049.8,-6.2,0.78,-49.53,22.95,-46.5,62.4,25.2
-72.27,42.48,1048.83,2.07,-1.1,-119.63,21.15,-43.95,61.95,25.06
91.8,-68.85,1040.53,1.05,-1.24,-47.63,17.4,-45.15,60.75,25.06
62.5,-200.2,1048.83,0.07,-0.19,-36.02,16.95,-47.55,60.3,25.39
-8.3,-0.98,1049.8,2.68,5.02,-12.15,15.6,-45.9,60.45,25.06
1.95,-3.91,1036.13,0.47,-0.58,-5.85,16.95,-47.1,61.05,25.01
8.79,-8.79,1041.02,0.07,-0.27,-2.3,16.35,-46.95,61.2,25.39
4.39,-9.77,1037.11,0.66,-0.98,-0.31,14.25,-47.4,62.55,25.15
-4.39,-15.14,1033.69,1.07,3.0,-0.29,16.35,-48.0,60.45,25.2
-7.81,-1.46,1043.46,-0.17,2.02,-1.19,15.45,-46.8,61.65,25.15
-2.44,-3.42,1033.69,1.16,0.03,-0.27,16.35,-46.65,60.15,25.25
5.37,-2.44,1027.83,0.13,-0.32,-2.04,17.1,-46.2,60.75,25.15
-9.28,-11.72,1046.88,0.5,-0.46,-0.21,16.8,-46.2,61.8,25.15
4.39,-3.42,1035.64,-2.83,-2.85,-1.79,16.95,-45.75,61.35,25.15
-1.46,-5.86,1042.97,-0.42,-1.56,0.05,16.5,-48.3,61.35,25.01
-17.58,-18.07,1054.2,-0.47,2.4,2.09,16.5,-46.5,61.95,25.15
-0.98,-2.93,1041.99,-1.82,-0.4,-1.43,15.9,-46.05,60.0,25.25
7.32,-23.44,1041.99,-0.24,0.52,-0.71,16.35,-45.9,60.15,25.2
-10.74,-7.81,1037.6,1.08,-0.71,1.8,16.95,-46.5,60.0,25.15
1.46,-10.25,1038.09,-1.77,-0.11,1.03,18.15,-47.1,60.6,25.15
-6.84,-8.79,1032.71,-1.73,-2.63,4.88,17.25,-48.6,60.3,25.25
-1.95,0.98,1036.62,-0.09,1.11,1.86,16.8,-46.2,60.45,25.15
-0.98,-0.49,1045.41,0.88,2.77,-1.84,16.8,-46.65,59.7,25.2
-6.84,-14.65,1039.06,0.54,1.18,2.85,15.45,-46.5,61.95,25.35
0.0,-6.35,1047.85,-0.46,-0.36,0.96,16.5,-47.85,60.3,24.82
-1.46,0.98,1030.76,0.22,1.04,0.36,15.6,-47.4,60.75,25.01
4.88,-7.81,1045.9,0.14,2.27,0.81,16.35,-46.65,60.75,24.87
-5.37,2.44,1044.92,-0.5,0.26,-1.96,16.5,-45.75,60.0,25.01
-12.7,-10.25,1029.3,0.11,-0.58,-1.69,16.95,-47.55,58.95,24.82
-19.53,-6.35,1033.2,-1.14,-0.22,1.09,18.0,-47.85,58.5,24.82
-5.86,-2.44,1044.43,-1.56,2.0,-0.34,16.2,-47.85,60.6,25.2
8.3,-11.72,1035.64,0.38,2.75,1.57,17.55,-47.55,61.65,25.2
3.42,-1.95,1054.69,1.11,-1.66,-3.18,15.3,-47.7,61.2,25.25
-1.46,-16.11,1039.06,0.31,-0.99,-0.82,15.9,-47.55,60.3,25.25
-3.91,-3.91,1041.5,-0.03,1.83,0.85,16.2,-47.85,61.05,25.2
-0.49,-4.39,1034.67,1.6,0.65,-0.54,16.8,-46.95,59.4,25.2
6.84,-15.14,1035.64,0.09,0.21,2.62,16.8,-46.2,60.75,25.25
0.98,2.93,1030.76,-1.13,1.85,1.25,17.85,-48.0,59.4,24.91
-6.35,-2.44,1029.3,0.62,-2.23,7.3,16.8,-46.95,61.2,25.2
-0.49,-8.79,1039.55,-0.91,0.7,6.47,17.55,-47.55,60.6,25.15
-14.65,-16.11,1041.99,0.13,1.53,8.35,16.2,-47.1,60.6,25.15
-58.11,-51.76,1034.67,-0.37,0.19,30.68,16.5,-47.55,61.05,25.01
-8.3,-19.53,1041.5,1.82,-0.39,41.55,17.55,-45.0,60.0,24.91
-66.41,-71.78,1057.62,-0.11,3.53,59.9,17.4,-45.9,59.1,25.35
-45.41,-44.92,1045.41,0.99,-0.69,92.29,20.85,-45.3,58.95,25.15
-21.97,-378.42,1012.21,5.49,-1.29,111.07,20.85,-45.3,58.5,24.87
54.69,44.92,1023.93,3.93,-1.59,113.92,22.95,-45.0,56.4,24.82
-85.94,360.35,1083.98,2.63,-9.58,74.27,24.3,-41.4,57.15,25.15
133.79,-7.32,1061.52,12.11,2.99,73.13,27.15,-39.9,58.5,24.87
220.7,-139.16,999.02,24.67,-0.08,57.24,26.85,-39.15,57.45,25.06
93.75,-66.41,978.03,-3.47,-4.58,-24.44,28.05,-38.55,61.2,25.2
-0.98,98.63,1064.45,-25.21,-0.32,-40.21,26.1,-42.45,63.0,25.2
-377.44,-110.35,1009.28,-1.68,11.16,-35.83,24.75,-42.75,65.1,25.2
-70.31,-48.83,952.15,-0.53,-1.74,-90.79,25.05,-45.3,66.6,25.15
-49.32,-85.45,1044.92,10.02,-5.45,-39.12,22.2,-45.0,67.95,25.25
73.73,137.21,1033.69,3.46,-1.34,-71.17,22.35,-44.1,67.35,25.39
127.93,-37.6,1139.16,-2.59,2.36,-10.41,19.95,-44.1,68.1,25.15
27.34,62.01,1000.98,39.53,-2.27,-10.76,19.5,-45.45,68.1,25.06
327.64,326.17,1093.75,60.34,-5.63,-115.05,19.35,-43.2,68.25,25.15
-3.91,109.86,1034.67,52.68,-4.45,-66.23,16.2,-42.45,70.05,25.35
83.98,200.2,1244.63,211.97,-11.48,-78.95,14.25,-39.75,71.55,25.06
-97.66,158.69,1245.61,250.13,-21.39,-52.95,13.95,-22.65,76.8,25.35
-29.79,420.9,854.98,149.2,-0.9,-15.16,12.3,-7.95,76.65,25.15
4.39,545.41,830.57,123.61,-3.05,1.49,13.05,-2.4,76.2,25.06
-6.35,601.07,836.91,54.83,-4.47,-2.6,13.2,1.95,73.35,25.2
0.49,614.26,778.32,15.08,2.76,4.8,12.0,3.9,73.05,25.15
-2.93,636.23,819.82,-2.05,3.11,4.59,13.35,4.65,72.75,25.06
-13.18,624.51,859.37,15.27,1.02,3.63,12.9,5.25,72.3,25.2
5.86,647.46,824.22,41.69,4.19,1.9,13.05,4.95,74.1,25.2
-2.44,675.29,760.25,35.08,1.95,0.77,13.5,8.1,71.85,25.25
-7.81,679.69,766.11,17.66,0.31,-0.78,12.9,8.4,71.55,25.39
-0.49,681.15,762.7,3.94,0.89,-1.0,11.85,9.9,70.8,25.06
-11.23,680.18,754.88,10.22,-0.47,1.45,13.2,11.4,71.55,25.25
-5.37,686.52,768.07,3.02,1.92,-1.68,12.6,11.55,70.65,25.15
5.37,699.22,749.51,5.1,1.21,0.57,11.25,12.3,70.05,25.25
-6.35,692.38,750.98,3.24,1.58,-0.11,12.3,10.8,70.05,25.2
-10.74,690.43,744.63,-5.38,0.78,0.4,11.25,11.55,70.35,25.25
-4.39,711.43,729.0,-45.65,-2.67,-3.69,11.1,9.15,69.15,25.35
93.26,498.05,568.36,-250.14,-25.24,-30.2,11.85,5.85,70.2,25.2
-150.39,235.35,595.21,-250.14,25.32,66.62,10.5,-18.15,71.1,25.35
4.39,96.19,1053.71,-12.51,-2.89,-7.52,11.25,-37.65,70.05,25.44
208.98,18.07,1470.7,192.78,-5.77,-40.89,11.85,-39.0,68.85,25.25
-442.38,257.81,615.23,250.13,-44.24,-108.69,9.0,-24.75,73.95,25.39
-41.5,656.25,699.71,220.53,-10.36,-11.27,10.05,11.4,71.25,25.15
49.32,789.06,582.03,-44.19,2.89,1.53,9.45,17.4,67.95,25.25
38.57,560.55,332.03,-250.14,39.58,54.25,9.0,15.75,66.0,25.06
-75.68,-42.48,1537.11,-250.14,51.66,250.13,11.25,-25.65,72.45,25.39
-55.66,-48.34,1126.95,4.99,-3.24,-11.34,10.65,-42.3,65.25,25.35
28.32,72.27,1557.62,250.13,-24.49,-141.41,9.6,-36.75,69.45,25.2
-431.64,391.6,93.26,250.13,-31.89,-40.54,7.95,-10.35,72.9,25.44
-30.27,624.02,664.06,25.27,7.88,9.99,7.95,9.6,69.75,25.25
-138.67,518.07,198.24,-250.14,68.52,84.97,8.4,7.5,69.6,25.44
564.45,141.11,756.35,21.49,5.6,6.42,12.15,-34.2,70.2,25.2
-9.77,28.32,1050.78,10.67,0.57,-4.12,10.65,-41.85,64.65,25.2
32.71,-155.27,1643.55,250.13,-32.66,-162.94,11.1,-37.2,68.4,25.39
-83.5,275.39,673.34,235.93,8.37,11.59,9.45,1.35,71.4,25.25
-11.23,657.23,708.01,6.92,12.97,11.84,10.95,7.95,69.6,25.54
-21.0,518.55,373.05,-250.14,37.85,55.75,9.3,4.05,71.25,25.39
535.16,-2000.0,1999.94,-250.14,-11.32,26.57,11.25,-8.7,71.1,25.44
34.18,21.48,1071.29,9.79,0.19,-20.26,11.55,-42.75,64.05,25.39
-5.86,-83.5,1712.89,250.13,-32.08,-173.43,11.4,-41.1,66.3,25.39
-44.43,406.25,653.81,191.55,-13.74,-20.53,9.6,-6.3,72.6,25.25
5.37,606.45,671.87,6.68,3.95,2.82,9.9,2.4,71.7,25.39
-55.66,56.64,234.86,-250.14,19.45,37.25,10.05,1.2,71.25,25.25
129.88,21.97,1041.02,10.31,0.73,-14.42,10.5,-43.5,65.1,25.39
0.49,43.46,1039.55,-4.78,2.02,-4.63,10.35,-44.85,64.95,25.44
-23.44,47.36,1030.27,-4.83,-3.85,0.18,10.35,-44.4,64.2,25.01
4.88,16.6,1033.2,-2.78,1.96,-1.38,10.35,-45.9,64.95,25.35
0.98,44.92,1047.85,-2.47,-1.33,1.4,10.2,-45.75,65.55,25.39
14.16,33.2,1045.9,-0.63,-0.43,-1.97,10.05,-45.15,64.2,25.39
-10.74,20.02,1046.39,-1.47,0.98,0.85,10.95,-45.0,64.05,25.39
8.3,34.67,1036.13,-2.42,1.05,2.6,10.65,-45.45,64.95,25.54
-2.93,20.51,1040.53,-0.28,0.92,1.19,10.05,-44.4,65.7,25.39
-16.11,20.02,1051.76,0.24,-0.88,0.89,10.65,-45.9,64.2,25.44
-3.42,34.18,1044.92,-1.52,0.76,0.98,9.3,-44.85,64.95,25.39
9.77,13.18,1044.92,-0.3,0.48,2.86,10.95,-44.55,64.5,25.35
-4.39,25.88,1052.25,0.29,-1.99,-1.45,10.95,-44.85,63.9,25.44
-6.35,21.97,1036.13,-0.62,1.89,0.18,9.45,-44.25,64.05,25.39
7.32,17.58,1041.5,-0.37,0.89,0.21,11.4,-45.9,64.65,25.35
-1.95,15.63,1042.97,2.6,0.34,12.32,10.35,-46.2,64.65,25.44
25.88,11.72,1106.45,34.51,-1.26,3.61,10.95,-45.3,64.05,25.39
-54.2,146.97,953.12,250.13,-12.55,-63.95,12.3,-73.95,66.6,25.35
-97.66,237.3,976.56,213.93,-9.47,-30.4,10.35,-26.7,73.35,25.44
-12.21,377.44,859.37,77.7,-0.21,-2.37,11.4,-16.5,73.65,25.25
-14.16,410.64,907.23,-77.2,10.74,22.44,12.45,-14.7,74.4,25.25
-21.0,298.34,985.84,-7.56,20.75,51.65,10.65,-19.35,73.65,25.2
16.6,383.3,977.54,127.4,1.24,7.11,13.2,-17.25,73.95,25.39
78.12,681.15,799.8,250.13,6.78,0.58,14.4,-6.9,73.8,25.44
-41.99,435.06,732.42,195.78,-9.26,-10.41,12.6,9.75,69.6,25.44
17.09,698.73,666.5,-19.15,-25.21,-24.04,13.35,13.35,69.6,25.2
146.48,349.61,70.8,-250.14,-65.74,-54.2,10.95,11.55,66.6,25.39
-452.15,-472.66,1274.41,96.15,-42.1,246.32,9.0,-30.3,72.3,25.39
8.79,0.98,1049.8,-4.89,1.06,2.66,10.5,-47.1,64.05,25.35
-1.95,-24.9,1066.41,-2.91,0.6,58.17,9.9,-47.1,63.0,25.39
222.66,62.01,1265.63,211.4,-2.54,-31.15,10.65,-46.2,63.6,25.59
-215.82,235.35,982.91,250.13,-45.14,-148.92,10.65,-37.2,67.8,25.44
-9.77,506.35,767.58,40.77,-9.79,-14.25,9.15,-10.8,72.45,25.39
-66.89,480.96,380.37,-250.14,19.58,43.02,10.2,-10.05,72.45,25.44
-442.38,169.43,898.93,18.21,13.21,133.97,12.15,-24.15,71.25,25.25
-328.61,-424.32,1284.18,24.63,-11.0,-9.53,9.9,-47.55,62.7,25.35
-614.26,492.19,650.88,250.13,54.73,250.13,10.65,-44.1,63.9,25.44
109.86,32.71,650.39,-250.14,250.13,250.13,16.35,-33.6,69.45,25.44
-413.09,-18.55,1221.19,29.99,29.1,160.67,23.7,-45.0,65.85,25.54
-30.76,-52.73,976.56,-58.63,21.56,66.5,26.4,-44.55,65.85,25.39
-40.53,-98.63,1054.69,2.64,-0.65,44.93,29.85,-44.85,67.35,25.54
-37.6,-81.05,1042.48,-1.48,4.47,7.64,30.6,-44.1,68.4,25.15
-21.0,4.39,1042.48,-0.47,1.54,3.5,32.25,-44.4,67.35,25.2
-36.62,-13.67,1038.57,0.64,1.7,1.23,31.05,-44.25,69.0,25.2
-42.48,0.0,1018.55,1.07,2.62,5.03,32.25,-43.35,66.3,25.15
-42.48,6.35,1030.76,0.06,1.9,3.56,31.05,-42.75,68.55,25.15
-50.29,-13.67,1039.55,0.69,0.79,1.76,31.8,-43.95,67.95,25.44
-49.32,1.46,1031.74,0.45,0.0,5.55,31.2,-44.1,66.3,25.39
-42.97,-3.42,1038.57,2.87,0.24,1.05,32.55,-44.55,66.6,25.39
-52.73,3.91,1036.13,0.11,2.98,4.66,32.7,-44.4,66.3,25.39
-34.18,-4.39,1027.83,0.85,-2.78,3.08,32.55,-43.2,67.5,25.25
-53.71,-14.16,1045.9,0.52,1.28,-2.21,31.05,-42.75,66.15,25.44
-35.64,-21.0,1040.04,0.4,-1.3,9.74,31.8,-43.95,67.2,25.15
-22.95,5.86,1041.99,1.61,-1.1,-0.49,31.65,-43.65,67.8,25.35
-43.95,-11.23,1043.95,-0.76,1.02,0.13,31.65,-44.1,66.75,25.39
-47.36,4.39,1041.02,-2.21,-1.11,6.01,32.7,-44.1,66.3,25.44
-33.69,-9.28,1038.09,-3.39,-0.65,3.98,31.8,-43.95,67.2,25.39
-46.88,-43.46,1037.11,-1.31,1.66,9.55,32.7,-44.1,67.8,25.39
-41.99,0.49,1040.53,-1.12,-3.27,0.08,32.55,-43.95,66.6,25.25
-56.64,-7.32,1029.79,0.49,-4.56,1.0,31.8,-42.0,67.2,25.25
-30.76,-9.28,1036.13,-0.08,-2.51,0.15,31.65,-43.35,67.35,25.39
-41.02,-3.42,1041.5,-0.71,-2.29,1.56,31.8,-43.2,67.5,25.15
-41.99,-28.32,1037.11,-1.6,2.16,0.84,33.0,-44.85,66.3,25.39
-48.34,-12.21,1033.2,-0.85,0.18,1.44,33.0,-42.3,68.4,25.39
-41.99,-10.25,1031.74,-0.48,-0.34,1.05,32.55,-44.25,67.95,25.25
-41.02,-12.21,1040.04,-2.24,1.52,0.04,33.3,-44.4,67.05,25.39
-24.9,4.88,1041.02,0.52,-2.53,1.82,34.8,-44.85,66.75,25.44
-45.9,-19.53,1031.74,-0.58,-0.93,0.86,32.55,-44.25,67.5,25.39
-45.9,2.44,1047.85,0.95,0.18,2.79,32.85,-45.3,68.55,25.44
-25.39,-0.49,1036.13,0.86,2.38,-0.24,33.15,-43.2,66.9,25.54
-41.02,-20.02,1041.5,-0.12,1.54,-1.19,33.75,-45.15,67.8,25.25
-44.43,7.32,1033.69,-0.47,-1.75,1.11,33.9,-45.0,66.9,25.39
-46.88,-6.84,1033.2,-0.62,-2.14,-0.08,32.25,-44.4,67.05,25.59
-47.85,-12.21,1035.64,-2.16,1.92,-1.14,33.6,-45.0,66.6,25.39
-43.95,-0.98,1032.71,-0.02,-3.72,-1.76,32.7,-43.65,67.05,25.39
-37.11,-5.86,1026.86,-0.02,0.89,-1.24,33.15,-42.0,66.6,25.44
-46.39,-3.91,1032.23,1.44,-3.11,0.34,32.7,-44.1,67.05,25.39
-51.27,-6.35,1043.46,1.04,-0.82,-0.89,32.7,-45.15,68.1,25.25
-37.6,-18.07,1028.81,0.21,-0.77,-1.2,32.25,-42.6,66.75,25.15
-41.99,-10.25,1022.95,0.21,-3.17,-0.83,34.2,-44.55,66.9,25.25
-38.57,0.0,1036.13,-0.79,0.71,-0.07,33.0,-44.1,66.0,25.39
-31.74,-2.44,1039.06,1.95,0.87,0.79,32.1,-43.2,67.2,25.39
-43.95,4.88,1040.53,-0.21,1.06,2.54,32.25,-44.85,67.8,25.25
-46.88,-13.67,1032.23,-0.4,2.53,-0.53,32.1,-43.2,67.2,25.2
-33.69,-12.21,1036.13,-0.15,0.88,1.67,33.6,-43.5,68.55,25.44
-38.57,-1.46,1037.6,0.15,-1.21,0.78,33.6,-42.45,68.55,25.01
-52.25,-11.23,1031.25,0.47,-0.1,3.1,32.7,-44.1,67.35,25.44
-37.11,1.95,1031.25,-0.72,-0.24,2.46,32.7,-43.65,67.8,25.39
-40.04,-8.79,1038.57,0.76,0.41,1.61,32.7,-45.45,67.8,25.25
-36.62,-15.14,1030.76,0.25,0.97,-0.35,34.05,-43.65,67.05,25.35
-39.55,1.95,1043.46,-2.32,-1.44,-1.04,32.55,-44.25,67.5,25.39
-47.36,-7.81,1037.6,0.09,-0.73,2.47,31.8,-45.0,67.5,25.25
-33.69,-24.9,1030.27,-0.25,1.75,4.08,33.75,-41.85,68.1,25.2
-31.74,11.72,1034.18,-1.63,0.82,1.8,32.1,-44.55,67.2,25.15
-41.02,-11.72,1040.53,0.17,2.35,0.42,32.1,-43.95,67.5,25.39
-39.55,-6.84,1035.16,0.48,-0.29,1.47,31.95,-44.1,67.05,25.44
-43.46,-14.65,1024.9,-0.5,0.92,2.97,32.55,-42.45,66.9,25.44
-47.85,-27.34,1027.83,1.18,-0.15,0.68,32.85,-42.45,65.85,25.44
-47.36,-7.81,1035.64,-0.98,-0.79,-0.21,33.15,-44.55,68.25,25.39
-38.09,1.46,1036.13,-0.56,-0.32,-1.4,33.9,-42.75,67.2,25.54
-37.11,-7.32,1042.48,-0.72,-1.4,2.8,32.55,-44.25,67.95,25.44
